# AFGL atmospheric constituent profile. U.S. standard atmosphere 1976. ( AFGL-TR-86-0110)       
# molecules:    H2O
# z(km)   p(mb)        T(K)	h2o(cm-3)
120.0   0.00003     360.000	1.022800E+06
115.0   0.00004     300.000	2.325120E+06
110.0   0.00007     240.000	6.003200E+07
105.0   0.00014     210.800	1.711220E+07
100.0   0.00032     210.100	4.756001E+07
 95.0   0.00076     210.400	1.578960E+08
 90.0   0.00184     210.900	6.065600E+08
 85.0   0.00446     210.900	2.275630E+09
 80.0   0.01050     210.600	7.855600E+09
 75.0   0.02400     210.400	2.358028E+10
 70.0   0.05220     219.600	6.030500E+10
 65.0   0.10900     233.300	1.422120E+11
 60.0   0.21900     247.000	3.052350E+11
 55.0   0.42500     260.800	6.023100E+11
 50.0   0.79780     270.700	1.116060E+12
 47.5   1.09000     270.600	1.533000E+12
 45.0   1.49100     264.200	2.137025E+12
 42.5   2.06000     257.300	2.988545E+12
 40.0   2.87100     250.400	4.175775E+12
 37.5   4.04116     243.435	6.128100E+12
 35.0   5.74600     236.500	8.628900E+12
 32.5   8.25725     229.588	1.217830E+13
 30.0  11.97000     226.500	1.809675E+13
 27.5  17.43000     224.000	2.580300E+13
 25.0  25.49000     221.600	3.689123E+13
 24.0  29.72000     220.600	4.198950E+13
 23.0  34.67000     219.600	4.804800E+13
 22.0  40.47000     218.600	5.455230E+13
 21.0  47.29000     217.600	6.260625E+13
 20.0  55.29000     216.700	7.211100E+13
 19.0  64.67000     216.700	8.327550E+13
 18.0  75.65000     216.700	9.677249E+13
 17.0  88.50000     216.700	1.139600E+14
 16.0 103.50000     216.700	1.367490E+14
 15.0 121.10000     216.700	2.025000E+14
 14.0 141.70000     216.700	2.808805E+14
 13.0 165.80000     216.700	6.017410E+14
 12.0 194.00000     216.700	1.236803E+15
 11.0 227.00000     216.800	2.741906E+15
 10.0 265.00000     223.300	6.017959E+15
  9.0 308.00000     229.700	1.538518E+16
  8.0 356.50000     236.200	4.011698E+16
  7.0 411.10001     242.700	7.024160E+16
  6.0 472.20001     249.200	1.270574E+17
  5.0 540.50000     255.700	2.140204E+17
  4.0 616.59998     262.200	3.677232E+17
  3.0 701.20001     268.700	6.017162E+17
  2.0 795.00000     275.200	9.697315E+17
  1.0 898.79999     281.700	1.404222E+18
  0.0 1013.00000    288.200	1.973426E+18